Folder: HiPOZ/calData/20220902

Note: calData/20220902/20220902_100KPSI_NEW.txt
4:23:01.856 PM 9/2/2022 	 -50114.874467 	 -345.529896 	 297.647000 	 44.546000 	 -55.520698 	 -50059.353769 	 -345.147094 
4:23:09.135 PM 9/2/2022 	 -50105.953571 	 -345.468389 	 297.647000 	 44.546000 	 18.925034 	 -50124.878605 	 -345.598872 
4:23:16.229 PM 9/2/2022 	 -50110.213754 	 -345.497762 	 297.647000 	 44.546000 	 -86.878307 	 -50023.335447 	 -344.898757 
4:23:23.399 PM 9/2/2022 	 -50116.330940 	 -345.539938 	 297.647000 	 44.546000 	 -109.454045 	 -50006.876896 	 -344.785279 
4:23:30.648 PM 9/2/2022 	 -50112.070757 	 -345.510565 	 297.647000 	 44.546000 	 -114.736216 	 -49997.334541 	 -344.719487 
4:23:37.757 PM 9/2/2022 	 -50111.378932 	 -345.505795 	 297.647000 	 44.546000 	 -115.130179 	 -49996.248753 	 -344.712001 
4:23:45.038 PM 9/2/2022 	 -50115.384233 	 -345.533411 	 297.647000 	 44.546000 	 -117.172237 	 -49998.211996 	 -344.725537 
4:23:52.226 PM 9/2/2022 	 -50110.505049 	 -345.499770 	 297.647000 	 44.546000 	 -112.221647 	 -49998.283402 	 -344.726029 
4:23:59.428 PM 9/2/2022 	 -50111.997933 	 -345.510063 	 297.647000 	 44.546000 	 -112.241072 	 -49999.756862 	 -344.736188 
4:24:06.648 PM 9/2/2022 	 -50115.893998 	 -345.536926 	 297.647000 	 44.546000 	 -119.105512 	 -49996.788486 	 -344.715722 
4:24:13.802 PM 9/2/2022 	 -50112.325640 	 -345.512323 	 297.647000 	 44.546000 	 -120.598327 	 -49991.727313 	 -344.680826 
4:24:20.991 PM 9/2/2022 	 -50121.137301 	 -345.573077 	 297.647000 	 44.546000 	 -118.215734 	 -50002.921567 	 -344.758008 
4:24:28.163 PM 9/2/2022 	 -50115.092938 	 -345.531403 	 297.647000 	 44.546000 	 -123.321598 	 -49991.771340 	 -344.681130 
4:24:35.382 PM 9/2/2022 	 -50115.274997 	 -345.532658 	 297.647000 	 44.546000 	 -118.361544 	 -49996.913454 	 -344.716584 
4:24:42.618 PM 9/2/2022 	 -50116.003234 	 -345.537679 	 297.647000 	 44.546000 	 -118.353274 	 -49997.649960 	 -344.721662 
4:24:49.838 PM 9/2/2022 	 -50115.092938 	 -345.531403 	 297.647000 	 44.546000 	 -115.254414 	 -49999.838524 	 -344.736751 
4:24:57.011 PM 9/2/2022 	 -50112.034345 	 -345.510314 	 297.647000 	 44.546000 	 -113.988235 	 -49998.046110 	 -344.724393 
4:25:04.275 PM 9/2/2022 	 -50117.896649 	 -345.550733 	 297.647000 	 44.546000 	 -120.035153 	 -49997.861495 	 -344.723120 
4:25:11.433 PM 9/2/2022 	 -50104.497098 	 -345.458347 	 297.647000 	 44.546000 	 -123.400750 	 -49981.096348 	 -344.607529 
4:25:18.666 PM 9/2/2022 	 -50112.107169 	 -345.510816 	 297.647000 	 44.546000 	 -126.197909 	 -49985.909260 	 -344.640712 
4:25:25.835 PM 9/2/2022 	 -50109.594753 	 -345.493494 	 297.647000 	 44.546000 	 -122.695901 	 -49986.898852 	 -344.647535 
4:25:32.961 PM 9/2/2022 	 -50107.592103 	 -345.479686 	 297.647000 	 44.546000 	 -121.074005 	 -49986.518098 	 -344.644910 
4:25:40.276 PM 9/2/2022 	 -50122.011184 	 -345.579102 	 297.647000 	 44.546000 	 -125.998350 	 -49996.012834 	 -344.710374 
4:25:47.567 PM 9/2/2022 	 -50113.745701 	 -345.522114 	 297.647000 	 44.546000 	 -123.688042 	 -49990.057659 	 -344.669315 
4:25:54.715 PM 9/2/2022 	 -5

Note: calData/20220902/20220902_100KPSI_OLD.txt
4:23:01.631 PM 9/2/2022 	 -50064.275182 	 -345.181026 	 297.647000 	 44.546000 	 -55.520698 	 -50008.754484 	 -344.798225 
4:23:08.899 PM 9/2/2022 	 -50062.347516 	 -345.167736 	 297.647000 	 44.546000 	 18.925034 	 -50081.272550 	 -345.298219 
4:23:16.007 PM 9/2/2022 	 -50064.020585 	 -345.179271 	 297.647000 	 44.546000 	 -86.878307 	 -49977.142278 	 -344.580266 
4:23:23.163 PM 9/2/2022 	 -50068.785194 	 -345.212122 	 297.647000 	 44.546000 	 -109.454045 	 -49959.331149 	 -344.457463 
4:23:30.427 PM 9/2/2022 	 -50059.801542 	 -345.150182 	 297.647000 	 44.546000 	 -114.736216 	 -49945.065326 	 -344.359103 
4:23:37.536 PM 9/2/2022 	 -50063.002195 	 -345.172250 	 297.647000 	 44.546000 	 -115.130179 	 -49947.872016 	 -344.378455 
4:23:44.820 PM 9/2/2022 	 -50063.365906 	 -345.174757 	 297.647000 	 44.546000 	 -117.172237 	 -49946.193669 	 -344.366883 
4:23:52.005 PM 9/2/2022 	 -50066.675672 	 -345.197577 	 297.647000 	 44.546000 	 -112.221647 	 -49954.454025 	 -344.423836 
4:23:59.211 PM 9/2/2022 	 -50065.475427 	 -345.189302 	 297.647000 	 44.546000 	 -112.241072 	 -49953.234356 	 -344.415427 
4:24:06.427 PM 9/2/2022 	 -50063.184050 	 -345.173503 	 297.647000 	 44.546000 	 -119.105512 	 -49944.078538 	 -344.352300 
4:24:13.585 PM 9/2/2022 	 -50070.276407 	 -345.222403 	 297.647000 	 44.546000 	 -120.598327 	 -49949.678081 	 -344.390907 
4:24:20.759 PM 9/2/2022 	 -50064.384295 	 -345.181779 	 297.647000 	 44.546000 	 -118.215734 	 -49946.168561 	 -344.366710 
4:24:27.944 PM 9/2/2022 	 -50060.274365 	 -345.153442 	 297.647000 	 44.546000 	 -123.321598 	 -49936.952767 	 -344.303169 
4:24:35.163 PM 9/2/2022 	 -50058.128473 	 -345.138646 	 297.647000 	 44.546000 	 -118.361544 	 -49939.766929 	 -344.322572 
4:24:42.397 PM 9/2/2022 	 -50074.240853 	 -345.249737 	 297.647000 	 44.546000 	 -118.353274 	 -49955.887579 	 -344.433720 
4:24:49.616 PM 9/2/2022 	 -50072.531413 	 -345.237951 	 297.647000 	 44.546000 	 -115.254414 	 -49957.276999 	 -344.443300 
4:24:56.789 PM 9/2/2022 	 -50067.657691 	 -345.204348 	 297.647000 	 44.546000 	 -113.988235 	 -49953.669456 	 -344.418427 
4:25:04.041 PM 9/2/2022 	 -50069.658099 	 -345.218140 	 297.647000 	 44.546000 	 -120.035153 	 -49949.622946 	 -344.390527 
4:25:11.211 PM 9/2/2022 	 -50073.222463 	 -345.242716 	 297.647000 	 44.546000 	 -123.400750 	 -49949.821713 	 -344.391898 
4:25:18.430 PM 9/2/2022 	 -50063.293164 	 -345.174256 	 297.647000 	 44.546000 	 -126.197909 	 -49937.095255 	 -344.304152 
4:25:25.602 PM 9/2/2022 	 -50067.803175 	 -345.205351 	 297.647000 	 44.546000 	 -122.695901 	 -49945.107274 	 -344.359393 
4:25:32.739 PM 9/2/2022 	 -50058.128473 	 -345.138646 	 297.647000 	 44.546000 	 -121.074005 	 -49937.054468 	 -344.303870 
4:25:40.041 PM 9/2/2022 	 -50068.457854 	 -345.209865 	 297.647000 	 44.546000 	 -125.998350 	 -49942.459504 	 -344.341137 
4:25:47.333 PM 9/2/2022 	 -50066.748414 	 -345.198079 	 297.647000 	 44.546000 	 -123.688042 	 -49943.060372 	 -344.345280 
4:25:54.476 PM 9/2/2022 	 -5

Note: README.md
# HIPPOS
Software for the HIgh Pressure Processes in Ocean world Science lab at JPL

File: 20220902-1626_Temp297K.txt
IMPEDANCE MEASUREMENT
9/2/2022-4:26 PM
Chamber temperature (K): 297.30
Chamber pressure (MPa): 0.1
Description: 	84uScm_ElectrodeTest
Driving voltage (V): 5.000E-2
Start freq (Hz): 1.000E+6
Stop freq (Hz): 1.000E+3
# freq steps: 60
Index #	Frequency (Hz)	Impedance (ohm)	Phase (degrees)
0	1.0002e+06	4866.99	-51.2338
1	891445	5056.17	-45.0411
2	794414	5185.51	-39.9528
3	708164	5280.21	-35.3764
4	631055	5349.5	-31.3538
5	562383	5397.4	-27.7819
6	501211	5438.74	-24.6856
7	446836	5466.39	-21.8508
8	398320	5484.45	-19.4225
9	354961	5500.3	-17.219
10	316289	5514.21	-15.3325
11	282070	5527.61	-14.2395
12	251367	5534.37	-12.6748
13	223945	5540.88	-11.2838
14	199570	5545.63	-10.0463
15	178008	5550.04	-8.95459
16	158555	5555.02	-7.97596
17	141445	5558.21	-7.11485
18	125977	5561.41	-6.34301
19	112383	5565.61	-5.6551
20	100195	5569.02	-5.0299
21	89179.7	5571.65	-4.48108
22	79570.3	5574.24	-4.00289
23	70898.4	5577.04	-3.57226
24	63164.1	5579.44	-3.19059
25	56367.2	5581.82	-2.8517
26	50273.4	5583.74	-2.54859
27	44882.8	5585.69	-2.28404
28	39960.9	5587.46	-2.03978
29	35507.8	5589.2	-1.82281
30	31757.8	5590.73	-1.6351
31	28242.2	5591.85	-1.46237
32	25195.3	5593.01	-1.31144
33	22617.2	5593.57	-1.1848
34	20039.1	5594.72	-1.05645
35	17929.7	5595.67	-0.954208
36	15663.1	5596.23	-0.840903
37	14179.7	5596.68	-0.76872
38	12461.9	5597.23	-0.683674
39	11089.9	5597.93	-0.620658
40	9946.65	5598.3	-0.564597
41	9023.44	5598.31	-0.523329
42	7888.72	5598.86	-0.470898
43	7148.44	5599.03	-0.437272
44	6288.11	5599	-0.401004
45	5602.13	5599.57	-0.376873
46	5039.06	5599.64	-0.354799
47	4458.84	5599.88	-0.334363
48	4001.52	5600.1	-0.31996
49	3544.21	5600.34	-0.308627
50	3164.06	5600.59	-0.302573
51	2790.18	5600.97	-0.29775
52	2507.27	5601.15	-0.296607
53	2237.22	5601.61	-0.299285
54	1979.17	5602.12	-0.304879
55	1770.83	5602.47	-0.313746
56	1598.01	5602.84	-0.324784
57	1417.15	5603.35	-0.340433
58	1257.62	5604.08	-0.36116
59	1120.92	5604.64	-0.383189
60	1004.46	5605.41	-0.409028

File: 20220902-1629_Temp297K.txt
IMPEDANCE MEASUREMENT
9/2/2022-4:29 PM
Chamber temperature (K): 297.31
Chamber pressure (MPa): 0.1
Description: 	0.0084Sm_ElectrodeTest
Driving voltage (V): 5.000E-2
Start freq (Hz): 1.500E+6
Stop freq (Hz): 1.000E+3
# freq steps: 60
Index #	Frequency (Hz)	Impedance (ohm)	Phase (degrees)
0	1.50012e+06	2700.97	-112.472
1	1.32809e+06	3166.48	-104.367
2	1.17551e+06	3150.09	-93.3797
3	1.04074e+06	4829.2	-52.7713
4	921211	5014.53	-46.5596
5	815508	5159.01	-41.0161
6	721992	5266.05	-36.0281
7	639258	5338.72	-31.6864
8	565898	5389.07	-27.8884
9	500977	5427.34	-24.5609
10	443555	5453.34	-21.6415
11	392695	5474.71	-19.1003
12	347461	5491.09	-16.8243
13	307617	5500.74	-15.4863
14	272461	5508.56	-13.6999
15	241055	5513.8	-12.1001
16	213398	5518.89	-10.6961
17	189023	5520.97	-9.47226
18	167227	5523.09	-8.38229
19	148242	5524.71	-7.42774
20	131133	5525.28	-6.57081
21	116133	5526.09	-5.81781
22	102773	5527.43	-5.14506
23	91054.7	5527.04	-4.54199
24	80507.8	5527.2	-4.02042
25	71367.2	5527.56	-3.57171
26	63164.1	5527.96	-3.16422
27	55898.4	5528.53	-2.80824
28	49570.3	5529.04	-2.49458
29	43945.3	5529.54	-2.22022
30	38789.1	5529.86	-1.96921
31	34335.9	5530.7	-1.75069
32	30351.6	5531.37	-1.55439
33	27070.3	5531.86	-1.39575
34	23789.1	5532.7	-1.23182
35	21210.9	5533.42	-1.10743
36	18867.2	5533.96	-0.992573
37	16523.4	5534.84	-0.877933
38	14648.4	5535.55	-0.786775
39	13007.8	5536.36	-0.709205
40	11318.6	5537.24	-0.629322
41	10195.3	5537.75	-0.576198
42	9023.44	5538.75	-0.521938
43	7888.72	5539.67	-0.470898
44	6974.09	5540.51	-0.429827
45	6288.11	5541.23	-0.401969
46	5468.75	5542.61	-0.372248
47	4916.16	5543.44	-0.351665
48	4335.94	5544.38	-0.332249
49	3867.19	5545.47	-0.318848
50	3398.44	5546.73	-0.308174
51	3013.39	5547.81	-0.301603
52	2629.57	5549.08	-0.299741
53	2343.75	5550.33	-0.301818
54	2071.22	5551.6	-0.306659
55	1853.2	5552.82	-0.314911
56	1635.17	5554.01	-0.327545
57	1450.89	5555.45	-0.343106
58	1289.06	5556.66	-0.362336
59	1120.92	5558.3	-0.389088
60	1004.46	5559.66	-0.415752

File: 20220902-1643_Temp297K.txt
IMPEDANCE MEASUREMENT
9/2/2022-4:43 PM
Chamber temperature (K): 297.49
Chamber pressure (MPa): 0.1
Description: 	1.5Sm_ElectrodeTest
Driving voltage (V): 5.000E-2
Start freq (Hz): 1.500E+6
Stop freq (Hz): 1.000E+3
# freq steps: 60
Index #	Frequency (Hz)	Impedance (ohm)	Phase (degrees)
0	1.50012e+06	23.2609	-13.8005
1	1.32809e+06	23.2699	-12.2044
2	1.17551e+06	23.2234	-10.8732
3	1.04074e+06	23.7139	-0.589154
4	921211	23.6909	-0.562162
5	815508	23.6766	-0.530339
6	721992	23.6725	-0.517081
7	639258	23.6738	-0.515565
8	565898	23.679	-0.518152
9	500977	23.6886	-0.519751
10	443555	23.6954	-0.52373
11	392695	23.7073	-0.544615
12	347461	23.7195	-0.557975
13	307617	23.7325	-0.577745
14	272461	23.7445	-0.590891
15	241055	23.7482	-0.623104
16	213398	23.7595	-0.655677
17	189023	23.7687	-0.693336
18	167227	23.7779	-0.736452
19	148242	23.7863	-0.789139
20	131133	23.7954	-0.853656
21	116133	23.8072	-0.923269
22	102773	23.7838	-0.998952
23	91054.7	23.8131	-1.10221
24	80507.8	23.8274	-1.21808
25	71367.2	23.8431	-1.3449
26	63164.1	23.8602	-1.48715
27	55898.4	23.8794	-1.64416
28	49570.3	23.9007	-1.81632
29	43945.3	23.9243	-2.00473
30	38789.1	23.9526	-2.22247
31	34335.9	23.9831	-2.4549
32	30351.6	24.0168	-2.71455
33	27070.3	24.0514	-2.97963
34	23789.1	24.0952	-3.31051
35	21210.9	24.1375	-3.63523
36	18867.2	24.1854	-3.99754
37	16523.4	24.2462	-4.4547
38	14648.4	24.3082	-4.91494
39	13007.8	24.376	-5.41501
40	11318.6	24.4664	-6.06712
41	10195.3	24.5416	-6.61032
42	9023.44	24.6415	-7.30414
43	7888.72	24.7663	-8.15287
44	6974.09	24.8987	-9.01822
45	6288.11	25.0248	-9.81316
46	5468.75	25.2195	-10.9956
47	4916.16	25.3905	-11.9899
48	4335.94	25.6232	-13.2727
49	3867.19	25.8692	-14.5504
50	3398.44	26.1925	-16.1315
51	3013.39	26.5461	-17.7401
52	2629.57	27.0192	-19.7312
53	2343.75	27.4914	-21.5571
54	2071.22	28.0871	-23.6687
55	1853.2	28.7149	-25.7025
56	1635.17	29.5459	-28.1387
57	1450.89	30.4852	-30.605
58	1289.06	31.5789	-33.1639
59	1120.92	33.1215	-36.3218
60	1004.46	34.5529	-38.8763

File: 20220902-1644_Temp298K.txt
IMPEDANCE MEASUREMENT
9/2/2022-4:44 PM
Chamber temperature (K): 297.51
Chamber pressure (MPa): 0.1
Description: 	1.5Sm_ElectrodeTest
Driving voltage (V): 5.000E-2
Start freq (Hz): 1.500E+6
Stop freq (Hz): 1.000E+3
# freq steps: 60
Index #	Frequency (Hz)	Impedance (ohm)	Phase (degrees)
0	1.50012e+06	23.3766	-13.8421
1	1.32809e+06	23.3522	-12.2489
2	1.17551e+06	23.3488	-10.9129
3	1.04074e+06	23.8082	-0.590807
4	921211	23.7797	-0.563783
5	815508	23.7675	-0.537828
6	721992	23.7608	-0.529059
7	639258	23.7607	-0.519343
8	565898	23.7658	-0.523474
9	500977	23.7722	-0.528233
10	443555	23.779	-0.529659
11	392695	23.7917	-0.54838
12	347461	23.802	-0.565508
13	307617	23.8139	-0.583211
14	272461	23.8269	-0.596232
15	241055	23.8312	-0.624786
16	213398	23.8423	-0.657357
17	189023	23.8516	-0.692848
18	167227	23.8613	-0.738711
19	148242	23.8696	-0.789328
20	131133	23.8792	-0.849832
21	116133	23.8922	-0.921187
22	102773	23.8612	-0.973707
23	91054.7	23.8981	-1.09402
24	80507.8	23.9142	-1.20893
25	71367.2	23.9296	-1.33292
26	63164.1	23.9478	-1.47382
27	55898.4	23.9672	-1.62837
28	49570.3	23.9895	-1.79724
29	43945.3	24.014	-1.98244
30	38789.1	24.0427	-2.1899
31	34335.9	24.0718	-2.4151
32	30351.6	24.1068	-2.66736
33	27070.3	24.1416	-2.92647
34	23789.1	24.1854	-3.25135
35	21210.9	24.2287	-3.5703
36	18867.2	24.2769	-3.92521
37	16523.4	24.3378	-4.37281
38	14648.4	24.3998	-4.82373
39	13007.8	24.4671	-5.3137
40	11318.6	24.5578	-5.95321
41	10195.3	24.6329	-6.48457
42	9023.44	24.7325	-7.16488
43	7888.72	24.8565	-7.99812
44	6974.09	24.9883	-8.84695
45	6288.11	25.113	-9.62796
46	5468.75	25.3066	-10.787
47	4916.16	25.4761	-11.7607
48	4335.94	25.707	-13.0181
49	3867.19	25.95	-14.272
50	3398.44	26.2697	-15.8203
51	3013.39	26.6179	-17.3963
52	2629.57	27.0842	-19.347
53	2343.75	27.5468	-21.1312
54	2071.22	28.1296	-23.194
55	1853.2	28.7416	-25.1773
56	1635.17	29.5506	-27.5555
57	1450.89	30.4642	-29.9722
58	1289.06	31.5309	-32.4944
59	1120.92	33.032	-35.6065
60	1004.46	34.426	-38.1329